# Optical constants for Co created by PTB
# Reconstructed from reflection measurements in the wavelength range 8 - 25 nm
# 40 nm Co thin film in a multilayer on Si (C/ Co/ Ru/ Si) (measured 4/2022)
# n = (1-delta) - (i*beta)
# The values are provided with their 3-sigma uncertainty bounds. HB: Higher Bound. LB: Lower Bound.
#lambda/nm	1-delta	beta	1-delta_LB	1-delta_HB	beta_LB	beta_HB
# ------------------------
8.0	0.96788	0.02267	0.96772	0.96804	0.02253	0.0228
8.1	0.96713	0.02328	0.96697	0.96729	0.02315	0.02341
8.2	0.96639	0.02393	0.96623	0.96656	0.0238	0.02407
8.3	0.96564	0.02463	0.96546	0.96581	0.0245	0.02477
8.4	0.96491	0.02536	0.96474	0.96508	0.02523	0.0255
8.5	0.96417	0.0261	0.964	0.96434	0.02597	0.02624
8.6	0.96343	0.02684	0.96326	0.9636	0.0267	0.02698
8.7	0.96269	0.02762	0.96249	0.9629	0.02748	0.02776
8.8	0.96193	0.0284	0.96174	0.96211	0.02825	0.02855
8.9	0.96116	0.02924	0.96097	0.96134	0.0291	0.02939
9.0	0.96036	0.03012	0.96017	0.96055	0.02996	0.03027
9.1	0.95955	0.03107	0.95936	0.95974	0.03092	0.03122
9.2	0.95876	0.03208	0.95855	0.95897	0.03192	0.03224
9.3	0.95798	0.03316	0.95778	0.95818	0.033	0.03331
9.4	0.95722	0.03428	0.95688	0.95756	0.03411	0.03445
9.5	0.95646	0.03549	0.95625	0.95668	0.03532	0.03566
9.6	0.95573	0.03676	0.9555	0.95597	0.03659	0.03693
9.7	0.95508	0.0381	0.95483	0.95533	0.03792	0.03827
9.8	0.95451	0.03952	0.95427	0.95476	0.03931	0.03973
9.9	0.95405	0.04095	0.9538	0.9543	0.04077	0.04114
10.0	0.95371	0.04236	0.95345	0.95397	0.04217	0.04256
10.1	0.95346	0.04371	0.95318	0.95375	0.04351	0.0439
10.2	0.95329	0.04498	0.95301	0.95357	0.04466	0.04529
10.3	0.95321	0.04613	0.95293	0.95349	0.04593	0.04634
10.4	0.95315	0.0472	0.95286	0.95343	0.047	0.04741
10.5	0.95315	0.04818	0.95286	0.95344	0.04797	0.04838
10.6	0.95316	0.04903	0.95287	0.95345	0.04882	0.04924
10.7	0.95311	0.04981	0.95282	0.9534	0.0496	0.05002
10.8	0.95309	0.05049	0.95279	0.95338	0.05028	0.05071
10.9	0.95287	0.05121	0.95255	0.9532	0.05099	0.05142
11.0	0.95272	0.0519	0.95238	0.95305	0.05168	0.05213
11.1	0.95254	0.05265	0.95224	0.95284	0.05242	0.05287
11.2	0.95225	0.05349	0.95194	0.95256	0.05327	0.05371
11.3	0.95199	0.05432	0.95149	0.9525	0.0541	0.05454
11.4	0.95177	0.05519	0.95145	0.95209	0.05496	0.05541
11.5	0.95158	0.05597	0.95126	0.9519	0.05575	0.0562
11.6	0.95135	0.05676	0.95103	0.95167	0.05654	0.05699
11.7	0.95119	0.05753	0.95083	0.95155	0.05729	0.05776
11.8	0.95093	0.05828	0.9506	0.95125	0.05804	0.05851
11.9	0.95075	0.05895	0.95043	0.95107	0.05871	0.05919
12.0	0.95047	0.05961	0.95014	0.95079	0.05937	0.05986
12.1	0.95032	0.06018	0.94997	0.95067	0.05993	0.06043
12.2	0.94994	0.06074	0.94963	0.95026	0.06049	0.06099
12.3	0.94978	0.0612	0.94946	0.95009	0.06095	0.06145
12.4	0.94923	0.06164	0.9489	0.94956	0.06138	0.06191
12.5	0.94854	0.06223	0.94819	0.94888	0.06196	0.0625
12.6	0.94785	0.06289	0.94751	0.94819	0.06262	0.06316
12.7	0.94709	0.06362	0.9467	0.94748	0.06335	0.06389
12.8	0.94633	0.06444	0.94598	0.94667	0.06417	0.06472
12.9	0.94555	0.06534	0.9452	0.94589	0.06507	0.06562
13.0	0.94468	0.06638	0.94433	0.94504	0.0661	0.06666
13.1	0.94389	0.06743	0.94352	0.94425	0.06714	0.06772
13.2	0.94309	0.06858	0.94272	0.94346	0.06829	0.06887
13.3	0.94237	0.06979	0.942	0.94274	0.06949	0.07008
13.4	0.94169	0.07102	0.94132	0.94206	0.07072	0.07132
13.5	0.94095	0.07232	0.94051	0.9414	0.072	0.07263
13.6	0.94035	0.07363	0.93995	0.94075	0.07331	0.07395
13.7	0.93967	0.07508	0.93927	0.94007	0.0749	0.07526
13.8	0.93911	0.07632	0.9387	0.93952	0.07597	0.07666
13.9	0.93851	0.07769	0.93809	0.93894	0.07734	0.07804
14.0	0.93796	0.07904	0.93752	0.9384	0.07867	0.07941
14.1	0.93739	0.08052	0.93693	0.93786	0.08014	0.0809
14.2	0.93683	0.08197	0.93635	0.93731	0.08158	0.08236
14.3	0.93625	0.08347	0.93575	0.93674	0.08306	0.08388
14.4	0.93573	0.08497	0.93521	0.93625	0.08456	0.08539
14.5	0.93526	0.08654	0.93471	0.93581	0.0861	0.08697
14.6	0.9348	0.08813	0.93422	0.93539	0.08767	0.08859
14.7	0.93446	0.08976	0.93385	0.93508	0.08929	0.09024
14.8	0.93401	0.09151	0.93338	0.93463	0.09101	0.092
14.9	0.93363	0.09323	0.93284	0.93441	0.09271	0.09374
15.0	0.9334	0.09492	0.93271	0.9341	0.09432	0.09552
15.1	0.93307	0.09671	0.93236	0.93379	0.09615	0.09727
15.2	0.93291	0.09853	0.93215	0.93368	0.09794	0.09912
15.3	0.93271	0.10038	0.93192	0.9335	0.09977	0.10099
15.4	0.93247	0.10236	0.93163	0.93331	0.10172	0.10299
15.5	0.93274	0.10407	0.93186	0.93363	0.10338	0.10475
15.6	0.93291	0.10594	0.93199	0.93383	0.10523	0.10665
15.7	0.93292	0.10804	0.93197	0.93388	0.10731	0.10878
15.8	0.93293	0.1102	0.93195	0.93392	0.10944	0.11096
15.9	0.9337	0.11191	0.93265	0.93474	0.11107	0.11275
16.0	0.93392	0.11398	0.93284	0.935	0.11298	0.11499
16.1	0.9346	0.11588	0.93345	0.93575	0.11495	0.11681
16.2	0.93548	0.11758	0.93428	0.93667	0.11655	0.1186
16.3	0.936	0.11954	0.93477	0.93723	0.1185	0.12059
16.4	0.93692	0.12113	0.93565	0.93819	0.12002	0.12223
16.5	0.93788	0.12273	0.93656	0.93919	0.12151	0.12395
16.6	0.93883	0.12424	0.93745	0.94021	0.123	0.12549
16.7	0.93946	0.12594	0.93807	0.94085	0.12462	0.12725
16.8	0.94059	0.1272	0.93922	0.94196	0.1255	0.1289
16.9	0.94136	0.1287	0.9399	0.94283	0.12727	0.13013
17.0	0.94235	0.12995	0.94092	0.94378	0.12842	0.13147
17.1	0.94315	0.13132	0.94247	0.94373	0.13079	0.13184
17.2	0.94397	0.13258	0.9433	0.94473	0.13207	0.13312
17.3	0.94472	0.13368	0.94402	0.94547	0.13319	0.13418
17.4	0.94566	0.13478	0.94491	0.94641	0.13427	0.13526
17.5	0.9463	0.13577	0.94553	0.94713	0.13527	0.13626
17.6	0.94688	0.13668	0.9461	0.94764	0.13618	0.13714
17.7	0.94763	0.13763	0.94689	0.94847	0.13714	0.13812
17.8	0.9481	0.13854	0.94731	0.94885	0.13803	0.13902
17.9	0.94823	0.13959	0.94743	0.94905	0.13912	0.14007
18.0	0.94769	0.13993	0.94695	0.94848	0.13941	0.14045
18.04	0.94775	0.14038	0.94701	0.94859	0.13991	0.14088
18.08	0.94781	0.1409	0.94704	0.94854	0.14041	0.14141
18.12	0.94788	0.14137	0.94707	0.94861	0.14093	0.14191
18.16	0.948	0.14187	0.94726	0.94879	0.14139	0.14239
18.2	0.94799	0.1424	0.94721	0.94878	0.14191	0.14291
18.24	0.94791	0.14296	0.94709	0.9487	0.14246	0.14349
18.28	0.94809	0.1435	0.94728	0.94884	0.14302	0.14399
18.32	0.94804	0.14413	0.94717	0.9489	0.14363	0.14464
18.36	0.94823	0.14473	0.94741	0.94897	0.14428	0.1453
18.4	0.94824	0.14534	0.94741	0.94902	0.14488	0.14585
18.44	0.94823	0.14603	0.94744	0.94906	0.14554	0.14654
18.48	0.9483	0.14672	0.94751	0.94917	0.14623	0.14724
18.52	0.94845	0.14738	0.94768	0.94926	0.1469	0.14788
18.56	0.94848	0.14808	0.94763	0.94935	0.1476	0.14859
18.6	0.94847	0.14889	0.94761	0.9493	0.14836	0.14941
18.64	0.94857	0.14963	0.94772	0.9494	0.14913	0.15011
18.68	0.94863	0.15043	0.94778	0.94945	0.14994	0.15093
18.72	0.94855	0.15134	0.94762	0.94942	0.15084	0.15189
18.76	0.94889	0.15217	0.94803	0.9498	0.15168	0.15271
18.8	0.94876	0.15313	0.94789	0.94967	0.1526	0.15366
18.84	0.94905	0.15408	0.94815	0.9499	0.15359	0.15464
18.88	0.94905	0.15515	0.94815	0.94986	0.15467	0.15566
18.92	0.94913	0.15627	0.94826	0.95002	0.15575	0.1568
18.96	0.94945	0.15744	0.94856	0.95049	0.15696	0.15798
19.0	0.94976	0.15858	0.9489	0.95072	0.15805	0.15909
19.04	0.95018	0.15985	0.94926	0.95113	0.15933	0.16036
19.08	0.95067	0.16111	0.94974	0.9516	0.16055	0.16161
19.12	0.95114	0.16249	0.95023	0.95206	0.16199	0.16301
19.16	0.95181	0.16388	0.95082	0.95272	0.16338	0.16438
19.2	0.95238	0.16538	0.95137	0.95336	0.16483	0.16587
19.24	0.95334	0.16664	0.9524	0.95423	0.16613	0.16717
19.28	0.95432	0.16818	0.95332	0.95532	0.16766	0.16874
19.32	0.9555	0.16954	0.95459	0.95653	0.16903	0.17008
19.36	0.95647	0.171	0.95552	0.95743	0.17051	0.1715
19.4	0.95787	0.17241	0.95686	0.95891	0.1719	0.17297
19.44	0.95921	0.17383	0.9582	0.96027	0.17331	0.17437
19.48	0.96092	0.17506	0.95982	0.96194	0.17451	0.17556
19.52	0.96255	0.17629	0.96147	0.96358	0.17577	0.17682
19.56	0.96433	0.17747	0.96329	0.96541	0.17697	0.17803
19.6	0.96627	0.17853	0.9652	0.96737	0.17802	0.17903
19.64	0.96807	0.17961	0.96696	0.96917	0.17911	0.18014
19.68	0.96993	0.18075	0.96886	0.97108	0.18021	0.1813
19.72	0.97217	0.18134	0.9711	0.97326	0.18084	0.18184
19.76	0.97437	0.18209	0.97328	0.97551	0.18158	0.18263
19.8	0.97656	0.18281	0.97539	0.97772	0.18229	0.18336
19.84	0.97881	0.18344	0.9777	0.97995	0.18293	0.18395
19.88	0.9813	0.18393	0.98017	0.98247	0.18342	0.18443
19.92	0.98368	0.18442	0.98243	0.98487	0.18385	0.18498
19.96	0.98637	0.1846	0.98518	0.98756	0.18411	0.18518
20.0	0.9903	0.18387	0.9891	0.99159	0.18336	0.18441
20.02	0.99099	0.18491	0.98888	0.99311	0.18392	0.18592
20.04	0.99224	0.185	0.99003	0.99435	0.18398	0.18593
20.06	0.99368	0.18508	0.99151	0.99586	0.18403	0.18606
20.08	0.995	0.18532	0.99271	0.99715	0.18426	0.18641
20.1	0.99653	0.185	0.99415	0.99864	0.18403	0.18595
20.12	0.99804	0.18497	0.99581	1.00018	0.18395	0.186
20.14	0.99944	0.18491	0.99728	1.00161	0.18389	0.18596
20.16	1.00114	0.18464	0.99901	1.00344	0.18358	0.18563
20.18	1.00259	0.18448	1.0003	1.00487	0.18337	0.18553
20.2	1.0042	0.18438	1.00184	1.00646	0.18323	0.18548
20.22	1.00577	0.18373	1.00344	1.00814	0.18259	0.18477
20.24	1.00738	0.18348	1.00499	1.00967	0.18238	0.18461
20.26	1.00907	0.18286	1.00686	1.01155	0.18174	0.18399
20.28	1.01062	0.18236	1.0083	1.01286	0.18124	0.1834
20.3	1.01225	0.18178	1.00997	1.01457	0.18066	0.18288
20.32	1.01365	0.18138	1.01133	1.01607	0.1801	0.18248
20.34	1.01522	0.18041	1.01301	1.01748	0.17923	0.18158
20.36	1.01678	0.17962	1.0145	1.01916	0.17843	0.18078
20.38	1.01822	0.17874	1.01602	1.0205	0.17747	0.17998
20.4	1.01971	0.17786	1.01746	1.0219	0.17668	0.17909
20.42	1.02116	0.17689	1.01899	1.02355	0.17565	0.17808
20.44	1.02251	0.17609	1.02009	1.0249	0.17481	0.17726
20.46	1.02368	0.17493	1.0213	1.026	0.17369	0.17626
20.48	1.02504	0.17396	1.02278	1.02733	0.17274	0.17514
20.5	1.02614	0.1728	1.0237	1.02832	0.17142	0.17405
20.52	1.02747	0.17176	1.02517	1.02985	0.17049	0.17315
20.54	1.02856	0.17087	1.0264	1.03079	0.16954	0.17214
20.56	1.02976	0.16997	1.02751	1.03219	0.1687	0.17127
20.58	1.0309	0.16866	1.02876	1.03302	0.16736	0.16994
20.6	1.03201	0.16776	1.02992	1.03416	0.16638	0.16904
20.62	1.0333	0.16662	1.03102	1.03557	0.16535	0.16805
20.64	1.03462	0.16545	1.0324	1.03674	0.16406	0.16674
20.66	1.03602	0.16442	1.03369	1.0382	0.16304	0.16579
20.68	1.03748	0.16343	1.03533	1.0397	0.16198	0.1648
20.7	1.03906	0.16176	1.03681	1.0412	0.16027	0.16318
20.72	1.04069	0.16037	1.03847	1.04282	0.15899	0.16167
20.74	1.04244	0.15855	1.04013	1.04455	0.15714	0.16001
20.76	1.04391	0.15698	1.04184	1.04598	0.15557	0.15838
20.78	1.04562	0.15509	1.04345	1.04782	0.15357	0.15647
20.8	1.04716	0.15296	1.04501	1.04942	0.15146	0.15452
20.82	1.04867	0.1502	1.04657	1.05081	0.14879	0.15162
20.84	1.04987	0.14787	1.04779	1.05201	0.1464	0.14934
20.86	1.05106	0.14514	1.04905	1.0532	0.14352	0.14657
20.88	1.05205	0.14209	1.05	1.05396	0.14052	0.14363
20.9	1.05278	0.1393	1.05078	1.05473	0.13775	0.14081
20.92	1.05347	0.13649	1.05155	1.05553	0.13495	0.13797
20.94	1.05369	0.13341	1.05179	1.05568	0.13178	0.13491
20.96	1.0539	0.13059	1.05191	1.05595	0.129	0.13202
20.98	1.05389	0.12756	1.05198	1.05589	0.12608	0.12899
21.0	1.05377	0.12452	1.05195	1.05558	0.12309	0.12596
21.02	1.05369	0.12163	1.0518	1.0556	0.12015	0.123
21.04	1.05348	0.11896	1.05173	1.05533	0.11757	0.1204
21.06	1.05295	0.11559	1.05113	1.05469	0.11414	0.11705
21.08	1.05239	0.1129	1.05063	1.05409	0.11154	0.11437
21.1	1.05163	0.10976	1.04994	1.05324	0.10834	0.11123
21.12	1.05062	0.10691	1.04905	1.0522	0.1055	0.10823
21.14	1.04924	0.10408	1.04773	1.05081	0.1027	0.10538
21.16	1.04766	0.1017	1.04613	1.04908	0.10039	0.10311
21.18	1.04561	0.09902	1.04421	1.04698	0.09779	0.10026
21.2	1.04349	0.09696	1.04213	1.04483	0.09577	0.09816
21.22	1.04127	0.09496	1.03994	1.04257	0.09382	0.09605
21.24	1.03882	0.09329	1.0374	1.04005	0.09218	0.09438
21.26	1.03634	0.09212	1.03507	1.03761	0.09099	0.09326
21.28	1.03398	0.09139	1.03269	1.03528	0.09026	0.09254
21.3	1.03157	0.09011	1.03036	1.03277	0.08912	0.09108
21.32	1.0292	0.08959	1.02797	1.03035	0.08857	0.09061
21.34	1.02702	0.089	1.02594	1.02821	0.08798	0.08998
21.36	1.02481	0.08854	1.02366	1.02601	0.08757	0.08952
21.38	1.02277	0.08837	1.02161	1.0239	0.08738	0.08931
21.4	1.02084	0.08826	1.0196	1.02198	0.08735	0.08924
21.42	1.01879	0.08783	1.01764	1.01996	0.08693	0.08878
21.44	1.01699	0.08773	1.0159	1.01816	0.08683	0.08866
21.46	1.01531	0.08766	1.01414	1.01641	0.08672	0.08858
21.48	1.01358	0.08768	1.01252	1.01475	0.08681	0.08858
21.5	1.01197	0.08771	1.0108	1.01304	0.08682	0.08859
21.52	1.0105	0.08796	1.0093	1.01171	0.08707	0.08889
21.54	1.00885	0.0877	1.00773	1.01	0.08678	0.0886
21.56	1.00743	0.0879	1.00635	1.0085	0.08698	0.08876
21.58	1.00609	0.08785	1.00504	1.00727	0.087	0.08874
21.6	1.0047	0.08789	1.00363	1.00579	0.08701	0.08875
21.62	1.00336	0.08806	1.00224	1.00446	0.08719	0.08887
21.64	1.00231	0.08836	1.00107	1.00344	0.08741	0.08923
21.66	1.00107	0.08827	0.99994	1.00218	0.0874	0.08911
21.68	0.99987	0.08849	0.99876	1.00097	0.08762	0.08935
21.7	0.99886	0.08846	0.99777	1.00004	0.08768	0.08937
21.72	0.99774	0.08867	0.99662	0.99888	0.08779	0.0895
21.74	0.99673	0.08893	0.99566	0.99786	0.08808	0.08976
21.76	0.9958	0.08922	0.99457	0.99702	0.08836	0.09005
21.78	0.99469	0.08897	0.99357	0.99573	0.08811	0.08981
21.8	0.99384	0.08924	0.99272	0.9951	0.08844	0.09003
21.82	0.99283	0.08936	0.99172	0.99399	0.08856	0.09027
21.84	0.99193	0.08944	0.9908	0.99311	0.08866	0.09031
21.86	0.99106	0.0897	0.98994	0.99222	0.08891	0.09051
21.88	0.99033	0.09016	0.9891	0.99157	0.08934	0.09103
21.9	0.98944	0.08986	0.98834	0.99061	0.08906	0.09072
21.92	0.98859	0.09009	0.98747	0.98982	0.08925	0.0909
21.94	0.98788	0.09023	0.98674	0.98914	0.08928	0.09102
21.96	0.98705	0.09033	0.98596	0.98819	0.08945	0.09115
21.98	0.98633	0.09056	0.98516	0.98748	0.0897	0.09143
22.0	0.98572	0.09098	0.98452	0.98689	0.09014	0.09181
22.02	0.98496	0.09073	0.98374	0.98604	0.08989	0.09161
22.04	0.98417	0.09096	0.98302	0.98534	0.09018	0.09181
22.06	0.9836	0.09116	0.98233	0.98472	0.09029	0.09199
22.08	0.98285	0.09122	0.98173	0.9841	0.09037	0.09204
22.1	0.9823	0.09124	0.98108	0.98352	0.09042	0.09204
22.12	0.98179	0.09178	0.98058	0.98308	0.09092	0.09259
22.14	0.98103	0.09156	0.97988	0.98228	0.09074	0.09234
22.16	0.98042	0.0919	0.9792	0.98157	0.09107	0.09273
22.18	0.97993	0.09191	0.97861	0.98109	0.09106	0.0927
22.2	0.97917	0.09191	0.97794	0.98032	0.0911	0.09268
22.22	0.97851	0.0923	0.97731	0.97977	0.09141	0.0931
22.24	0.97809	0.09253	0.9767	0.97929	0.09174	0.09336
22.26	0.97755	0.09252	0.97628	0.97874	0.09172	0.09332
22.28	0.97691	0.09271	0.97562	0.97811	0.0919	0.09355
22.3	0.97637	0.09273	0.97506	0.97763	0.09194	0.09357
22.32	0.97589	0.09277	0.97461	0.97711	0.09196	0.09363
22.34	0.97536	0.09312	0.97412	0.97666	0.09231	0.09397
22.36	0.9748	0.09347	0.97345	0.9761	0.09262	0.09436
22.38	0.97441	0.09311	0.97315	0.97561	0.09231	0.09392
22.4	0.97392	0.09345	0.97268	0.9752	0.09256	0.09429
22.42	0.97332	0.09358	0.97195	0.97466	0.0927	0.0944
22.44	0.97292	0.09365	0.97166	0.97424	0.0928	0.09444
22.46	0.97237	0.09396	0.9711	0.97363	0.0931	0.0948
22.48	0.97195	0.09425	0.97057	0.97343	0.09338	0.09507
22.5	0.9714	0.09404	0.97013	0.97267	0.09325	0.09486
22.52	0.97092	0.09433	0.96959	0.97227	0.09349	0.09517
22.54	0.97045	0.09446	0.96918	0.97178	0.09367	0.0953
22.56	0.97002	0.09452	0.96871	0.97139	0.0937	0.09533
22.58	0.96958	0.09462	0.9683	0.97087	0.09381	0.09545
22.6	0.96916	0.09517	0.96773	0.97052	0.09434	0.09604
22.62	0.9688	0.09483	0.96747	0.97006	0.09405	0.09561
22.64	0.96828	0.09509	0.96699	0.96954	0.09425	0.09593
22.66	0.96771	0.095	0.96631	0.96907	0.09418	0.09585
22.68	0.96739	0.09539	0.96604	0.96879	0.09453	0.0963
22.7	0.96702	0.09538	0.96571	0.96835	0.09453	0.0962
22.72	0.96644	0.09591	0.96503	0.96789	0.09498	0.09675
22.74	0.96601	0.09565	0.96478	0.96733	0.09483	0.09643
22.76	0.9656	0.09595	0.96431	0.9669	0.09509	0.09681
22.78	0.96527	0.09593	0.964	0.96673	0.09508	0.09676
22.8	0.96476	0.09621	0.96346	0.96606	0.09535	0.09704
22.82	0.96438	0.09623	0.96304	0.96573	0.09536	0.09708
22.84	0.96401	0.09679	0.96262	0.96542	0.09592	0.09761
22.86	0.96364	0.09647	0.96235	0.96494	0.09562	0.09727
22.88	0.9631	0.09672	0.96181	0.96452	0.09592	0.09756
22.9	0.96274	0.09682	0.96136	0.96408	0.09591	0.09771
22.92	0.96248	0.09708	0.96109	0.96376	0.09621	0.09796
22.94	0.96184	0.09721	0.96045	0.96321	0.09636	0.09806
22.96	0.96161	0.09761	0.96005	0.96312	0.09673	0.09846
22.98	0.96124	0.09714	0.95993	0.96254	0.09634	0.09801
23.0	0.96073	0.09761	0.95934	0.96211	0.09673	0.0985
23.02	0.96051	0.09744	0.95908	0.96191	0.09656	0.09829
23.04	0.95994	0.09755	0.95854	0.96137	0.09663	0.09839
23.06	0.95969	0.09786	0.95829	0.96109	0.09697	0.09875
23.08	0.95932	0.09834	0.95798	0.96082	0.09743	0.0992
23.1	0.95886	0.09813	0.95754	0.96022	0.0972	0.09903
23.12	0.95851	0.09818	0.95717	0.95991	0.09732	0.09903
23.14	0.95797	0.09831	0.95647	0.95942	0.0974	0.09928
23.16	0.95783	0.09816	0.95649	0.95925	0.09723	0.09907
23.18	0.95727	0.0986	0.95591	0.95863	0.0977	0.09951
23.2	0.95704	0.09899	0.95553	0.95857	0.09807	0.09989
23.22	0.9567	0.09877	0.95534	0.95805	0.09794	0.09962
23.24	0.95618	0.09888	0.95482	0.95754	0.09798	0.09978
23.26	0.95587	0.09906	0.9544	0.95732	0.09819	0.09996
23.28	0.95544	0.0989	0.9541	0.95679	0.09805	0.09982
23.3	0.95504	0.09921	0.95359	0.95643	0.09834	0.10015
23.32	0.95482	0.09989	0.95346	0.95635	0.09901	0.10082
23.34	0.95453	0.0994	0.9532	0.95586	0.09852	0.10031
23.36	0.95405	0.09938	0.95265	0.9555	0.09849	0.10027
23.38	0.95378	0.09976	0.95234	0.95523	0.09886	0.10071
23.4	0.95326	0.0999	0.95194	0.95459	0.09902	0.10082
23.42	0.95278	0.10023	0.95136	0.95415	0.09938	0.10116
23.44	0.95257	0.10051	0.95108	0.95415	0.0996	0.10143
23.46	0.95214	0.10027	0.95078	0.95349	0.09939	0.10119
23.48	0.95176	0.10043	0.95037	0.95315	0.09954	0.10132
23.5	0.95146	0.10051	0.95	0.95292	0.09956	0.10145
23.52	0.95118	0.10052	0.94987	0.95261	0.09967	0.10146
23.54	0.95089	0.10082	0.94949	0.95232	0.09988	0.10175
23.56	0.95052	0.10135	0.949	0.9521	0.10042	0.10224
23.58	0.95017	0.10083	0.94879	0.95152	0.10004	0.10164
23.6	0.94972	0.10104	0.94841	0.95102	0.1002	0.1018
23.62	0.94955	0.10105	0.94803	0.95091	0.10015	0.10186
23.64	0.9492	0.10116	0.94784	0.95044	0.10033	0.10203
23.66	0.94867	0.10146	0.94737	0.95003	0.10063	0.10228
23.68	0.94848	0.10181	0.94708	0.95001	0.10095	0.10271
23.7	0.94825	0.10147	0.94703	0.94961	0.10065	0.10228
23.72	0.94765	0.10167	0.94633	0.94895	0.10091	0.10249
23.74	0.94754	0.10166	0.94615	0.949	0.10085	0.10252
23.76	0.94726	0.1017	0.94597	0.94856	0.10088	0.10252
23.78	0.94689	0.10198	0.94557	0.94818	0.1012	0.10281
23.8	0.94654	0.10249	0.94514	0.94807	0.10163	0.10336
23.82	0.94613	0.10203	0.9448	0.94744	0.10119	0.10289
23.84	0.94579	0.10228	0.94444	0.94707	0.10144	0.10309
23.86	0.94547	0.10221	0.94402	0.94686	0.10134	0.10312
23.88	0.94508	0.10233	0.94382	0.94645	0.1015	0.10308
23.9	0.94461	0.10254	0.94331	0.946	0.10172	0.10337
23.92	0.94456	0.10297	0.94303	0.94608	0.10208	0.10389
23.94	0.94398	0.10254	0.94268	0.94543	0.10171	0.10334
23.96	0.94364	0.10275	0.94227	0.94495	0.10191	0.10357
23.98	0.94339	0.10284	0.94197	0.945	0.102	0.10372
24.0	0.94321	0.10283	0.94185	0.9445	0.10205	0.10372
24.02	0.94275	0.10315	0.94145	0.94408	0.10229	0.10397
24.04	0.94253	0.1036	0.94106	0.94403	0.10275	0.10451
24.06	0.94207	0.1031	0.94078	0.94338	0.10232	0.10391
24.08	0.94176	0.10335	0.94034	0.94313	0.10251	0.10415
24.1	0.94149	0.10332	0.94001	0.94308	0.10247	0.10423
24.12	0.9412	0.10334	0.93997	0.94254	0.10252	0.10422
24.14	0.94081	0.10355	0.9395	0.94213	0.10269	0.10442
24.16	0.94058	0.10413	0.93908	0.94204	0.10328	0.1051
24.18	0.94036	0.10363	0.93897	0.94163	0.10286	0.10447
24.2	0.93978	0.1039	0.93845	0.94113	0.1031	0.10476
24.22	0.93946	0.10387	0.93801	0.94098	0.10293	0.10475
24.24	0.93938	0.1039	0.93803	0.94071	0.10308	0.10468
24.26	0.93866	0.10407	0.93732	0.94004	0.10322	0.10486
24.28	0.93868	0.10459	0.93712	0.94024	0.10365	0.10548
24.3	0.93824	0.10415	0.93692	0.93961	0.10328	0.10502
24.32	0.93785	0.10428	0.93642	0.9392	0.10346	0.10512
24.34	0.93761	0.10427	0.93612	0.93906	0.10341	0.10517
24.36	0.93735	0.10429	0.93609	0.93865	0.10352	0.1051
24.38	0.93691	0.10462	0.93555	0.93827	0.10378	0.10551
24.4	0.9365	0.10499	0.93488	0.93807	0.10406	0.10595
24.42	0.93642	0.10447	0.93505	0.93776	0.10362	0.10528
24.44	0.93589	0.10485	0.93446	0.9373	0.10403	0.10567
24.46	0.93573	0.10477	0.9341	0.93735	0.10385	0.10574
24.48	0.93532	0.10477	0.93394	0.93662	0.10393	0.10563
24.5	0.93474	0.10498	0.93332	0.9362	0.10413	0.10589
24.52	0.9349	0.10549	0.93328	0.93646	0.10452	0.10649
24.54	0.93456	0.10501	0.93323	0.93596	0.10413	0.10585
24.56	0.934	0.1052	0.93248	0.93535	0.10434	0.10603
24.58	0.93387	0.10522	0.93225	0.93548	0.10432	0.10617
24.6	0.93348	0.10513	0.93217	0.93486	0.10422	0.106
24.62	0.93314	0.10542	0.93176	0.93464	0.10457	0.10627
24.64	0.93283	0.10589	0.93118	0.93443	0.10489	0.10691
24.66	0.93237	0.10524	0.93114	0.93383	0.10442	0.10607
24.68	0.93206	0.10553	0.93057	0.93345	0.10469	0.10639
24.7	0.93179	0.10539	0.93002	0.9334	0.10444	0.10625
24.72	0.93143	0.10539	0.93007	0.93285	0.10457	0.10628
24.74	0.93103	0.10575	0.92961	0.93242	0.10484	0.10666
24.76	0.93094	0.10617	0.92917	0.93247	0.1053	0.10709
24.78	0.93066	0.10555	0.92932	0.93212	0.10468	0.10639
24.8	0.93012	0.10571	0.92871	0.9315	0.10487	0.10655
24.82	0.92994	0.10569	0.92837	0.93162	0.10469	0.1066
24.84	0.92976	0.10558	0.92825	0.93109	0.10475	0.10647
24.86	0.92932	0.10573	0.92787	0.9307	0.10487	0.10661
24.88	0.92905	0.106	0.92744	0.93075	0.10501	0.10695
24.9	0.92864	0.10536	0.92716	0.93008	0.10446	0.10622
24.92	0.92839	0.10559	0.92688	0.92979	0.10472	0.10642
24.94	0.92813	0.10519	0.92635	0.92985	0.10419	0.10622
24.96	0.92794	0.10493	0.92657	0.92941	0.10409	0.10581
24.98	0.92756	0.10472	0.92603	0.929	0.10382	0.10554
25.0	0.92771	0.10418	0.92583	0.92962	0.10319	0.10517
